Folder: TrussAnalysis2D-MATLAB/examples/exam2024-01

Note: examples/exam2024-01/ex2_displacements.txt
1
4,0,0,0
1
1,1,-63.4349,0

Note: examples/exam2024-01/readme.md
This is an example from the 2024 January exam 

It is almost identical with the ex1, with the difference of the direction of the roller


The main tricky bit is the roller direction. 

in this case the 
- roller direction is set to one (1) which means fixing the normal direction 
- roller angle is set to the direction plane to -63.4349 degrees (atan (4,2))

The end result is the same with  setting
- the roller direction to 2 (fixing the axis parallel to provided angle)
- setting the angle equal to 23.56

File: test_RESULTS.dat
   NODE DISPLACEMENTS
----------------------------------------
NODE       DX(M)        DY(M)        DM(M)
1     -1.363E-06   2.727E-06   3.049E-06
2     -1.746E-06   2.727E-06   3.238E-06
3     -3.759E-07   2.659E-06   2.685E-06
4      0.000E+00   0.000E+00   0.000E+00
5     -2.019E-06   3.316E-07   2.047E-06

  ELEMENT FORCES AND STRESSES
----------------------------------------
EL.       FORCE(N)       STRESS(PA)
1    +1.879385E+04  +1.879385E+04
2    -6.840403E+03  -6.840403E+03
3    +1.529545E+04  +1.529545E+04
4    -3.315967E+04  -3.315967E+04
5    -1.368066E+04  -1.368066E+04
6    -7.064013E-02  -7.064013E-02
7    -7.414727E+04  -7.414727E+04

  SUPPORT REACTIONS
----------------------------------------
NODE       RX(N)        RY(N)        RM(N)
4      3.247E+04  -2.632E+04   4.180E+04
1      6.632E+04   3.316E+04   7.415E+04