Folder: TrussAnalysis2D-MATLAB/examples/example_101

Note: examples/example_101/forces.txt
1
3,0,1000,0

Note: examples/example_101/readme_101.md
This is the simplest possible truss (3 nodes 3 elements, simply supported)


# Mesh details

The nodes are:

| Node | X | Y |   
| --- | --- | --- |
| 1 | 0 | 0 |
| 2 | 1 | 0 |
| 3 | 0 | 2 |

The element connectivity is defined in the following table:

| Element | Node 1 | Node 2 | CrossSection ID|
| --- | --- | --- | --- |
| 1 | 1 | 2 | 1 |
| 2 | 2 | 3 | 1 |
| 3 | 3 | 1 | 1 |

The mateiral Id is defined in the following table:

| Crossection ID | E (Pa) | A $m^2$ |
| --- | --- | --- |
| 1 | 2000 | 1 |

# Displacement boundary conditions

## Pinned Nodes
The table below presents the pinned nodes:

| NodeID |Angle | Dx | Dy | 
| --- | --- | --- | --- |
| 1 | 0 | 0 | 0 |


## Roller Nodes
For the **roller nodes**. The table below presents the roller nodes:


| NodeID | Rolling direction | Angle | Distance |
| --- | --- | --- | --- |
| 2 | 1 | 0 | 0 |


where:
- Rolling direction: can be either 1(:normal) or 2 (: parallel), and determines if the normal or parallel direction to  the plane is **fixed**. 
- Angle: is the angle between the global x-axis and the roller support plane.
- Distance: is the normal displacement of the roller support plane.


# Forces

The table below presents the forces:

| NodeID | Angle | Fx | Fy |
| --- | --- | --- | --- |
| 3 | 0 | 1000 |  |

where:
- NodeId  : is the node id where the force is applied.
- Angle: is the angle between the global x-axis and the force direction.
- Fx: is the force in the x direction.
- Fy: is the force in the y direction.

Note: examples/example_101/readme_NOT_WORKING.md
This is the simplest possible truss (3 nodes 3 elements, simply supported)

However it does not work. 

I need to understand why

File: test_RESULTS.dat
   NODE DISPLACEMENTS
----------------------------------------
NODE       DX(M)        DY(M)        DM(M)
1      0.000E+00   0.000E+00   0.000E+00
2      5.000E-09   0.000E+00   5.000E-09
3      1.009E-07   2.000E-08   1.029E-07

  ELEMENT FORCES AND STRESSES
----------------------------------------
EL.       FORCE(N)       STRESS(PA)
1    +1.000000E+03  +1.000000E+03
2    -2.236068E+03  -2.236068E+03
3    +2.000000E+03  +2.000000E+03

  SUPPORT REACTIONS
----------------------------------------
NODE       RX(N)        RY(N)        RM(N)
1     -1.000E+03  -2.000E+03   2.236E+03
2      0.000E+00   2.000E+03   2.000E+03